{
	"meta": {
		"source": "https://p-hi2.digitaledge.cigna.com"
	},
	"entry": [{
		"fullUrl": "https://p-hi2.digitaledge.cigna.com/PatientAccess/v1-devportal/Patient/ifp-A00000000000005",
		"resource": {
			"id": "ifp-A00000000000005",
			"meta": {
				"lastUpdated": "2022-06-20T15:45:22.043000+00:00",
				"profile": ["http://hl7.org/fhir/us/carin-bb/StructureDefinition/C4BB-Patient"],
				"source": "IFP#CqP06ARvJo9XS9Cl",
				"versionId": "1"
			},
			"text": {
				"div": "<div xmlns=\"http://www.w3.org/1999/xhtml\"><div class=\"hapiHeaderText\">Felecita <b>MONAHAN </b></div><table class=\"hapiPropertyTable\"><tbody><tr><td>Identifier</td><td>A00000000000005</td></tr><tr><td>Date of birth</td><td><span>12 January 2013</span></td></tr></tbody></table></div>",
				"status": "generated"
			},
			"birthDate": "2013-01-12",
			"gender": "female",
			"identifier": [{
				"system": "https://developer.cigna.com",
				"type": {
					"coding": [{
						"code": "um",
						"system": "http://hl7.org/fhir/us/carin-bb/CodeSystem/IdentifierTypeCS"
					}]
				},
				"value": "A00000000000005"
			}, {
				"system": "https://developer.cigna.com",
				"type": {
					"coding": [{
						"code": "mb",
						"system": "http://hl7.org/fhir/us/carin-bb/CodeSystem/IdentifierTypeCS"
					}]
				},
				"value": "unknown"
			}],
			"maritalStatus": {
				"coding": [{
					"code": "UNK",
					"display": "unknown",
					"system": "http://terminology.hl7.org/CodeSystem/v3-NullFlavor"
				}],
				"text": "unknown"
			},
			"name": [{
				"family": "Monahan",
				"given": ["Felecita"],
				"use": "official"
			}],
			"telecom": [{
				"system": "phone",
				"use": "mobile",
				"value": "9404535496"
			}],
			"resourceType": "Patient"
		},
		"search": {
			"mode": "match"
		}
	},{
		"fullUrl": "https://p-hi2.digitaledge.cigna.com/PatientAccess/v1-devportal/Condition/ifp-A00000000000005-CS0000449534-K57.92",
		"resource": {
			"id": "ifp-A00000000000005-CS0000449534-K57.92",
			"meta": {
				"lastUpdated": "2022-06-20T15:45:22.431000+00:00",
				"profile": ["http://hl7.org/fhir/us/core/StructureDefinition/us-core-condition"],
				"source": "IFP#BfVDmjcVAxAfr5Be",
				"versionId": "1"
			},
			"category": [{
				"extension": [{
					"url": "http://hl7.org/fhir/StructureDefinition/data-absent-reason",
					"valueCode": "unknown"
				}]
			}],
			"clinicalStatus": {
				"coding": [{
					"code": "active",
					"display": "active",
					"system": "http://terminology.hl7.org/CodeSystem/condition-clinical"
				}],
				"text": "active"
			},
			"code": {
				"coding": [{
					"code": "K57.92",
					"display": "DVTRCLI OF INTEST, PART UNSP, W/O PERF OR ABSCESS W/O BLEED"
				}],
				"text": "Null"
			},
			"identifier": [{
				"value": "A00000000000005-CS0000449534-K57.92"
			}],
			"recordedDate": "2019-10-22",
			"subject": {
				"reference": "Patient/ifp-A00000000000005"
			},
			"resourceType": "Condition"
		},
		"search": {
			"mode": "match"
		}
	}, {
		"fullUrl": "https://p-hi2.digitaledge.cigna.com/PatientAccess/v1-devportal/Encounter/ifp-1C9A46F07B3CADE33EFC75ABA3DC37CF",
		"resource": {
			"id": "ifp-1C9A46F07B3CADE33EFC75ABA3DC37CF",
			"meta": {
				"lastUpdated": "2022-06-20T15:45:29.685000+00:00",
				"profile": ["http://hl7.org/fhir/us/core/StructureDefinition/us-core-encounter"],
				"source": "IFP#e7zkeLCSmQFgUX0Z",
				"versionId": "1"
			},
			"class": {
				"extension": [{
					"url": "http://hl7.org/fhir/StructureDefinition/data-absent-reason",
					"valueCode": "unknown"
				}]
			},
			"diagnosis": [{
				"condition": {
					"reference": "Condition/ifp-A00000000000005-OP0447575426-K57.80-Y-"
				},
				"use": {
					"coding": [{
						"display": "Admission diagnosis"
					}]
				}
			}],
			"identifier": [{
				"system": "http://dev.cigna.com/system/TRCR",
				"value": "TRCR-OP0447575426-1"
			}],
			"location": [{
				"location": {
					"reference": "Location/ifp-7312532"
				}
			}, {
				"location": {
					"reference": "Location/ifp-0566265"
				}
			}],
			"participant": [{
				"individual": {
					"reference": "Practitioner/ifp-50ef4542ecb5ae5eddc0dac76a10aaed"
				}
			}, {
				"individual": {
					"reference": "Practitioner/ifp-6a4d3d6fe165b6a0a79b6a976d043c2c"
				}
			}],
			"period": {
				"end": "2019-12-31",
				"start": "2019-11-07"
			},
			"reasonCode": [{
				"coding": [{
					"code": "K57.80",
					"display": "Dvtrcli of intest, part unsp, w perf and abscess w/o bleed"
				}]
			}],
			"reasonReference": [{
				"reference": "Condition/ifp-A00000000000005-OP0447575426-K57.80-Y-"
			}],
			"serviceProvider": {
				"reference": "Organization/ifp-0566265"
			},
			"serviceType": {
				"coding": [{
					"code": "302",
					"display": "Medical Outpatient"
				}]
			},
			"status": "unknown",
			"subject": {
				"reference": "Patient/ifp-A00000000000005"
			},
			"type": [{
				"extension": [{
					"url": "http://hl7.org/fhir/StructureDefinition/data-absent-reason",
					"valueCode": "unknown"
				}]
			}],
			"resourceType": "Encounter"
		},
		"search": {
			"mode": "match"
		}
	}, {
		"fullUrl": "https://p-hi2.digitaledge.cigna.com/PatientAccess/v1-devportal/ExplanationOfBenefit/ifp-577B939844288EC2702EA92A8A2BEAA0",
		"resource": {
			"id": "ifp-577B939844288EC2702EA92A8A2BEAA0",
			"meta": {
				"lastUpdated": "2022-06-20T15:45:34.176000+00:00",
				"profile": ["http://hl7.org/fhir/us/carin-bb/StructureDefinition/C4BB-ExplanationOfBenefit-Inpatient-Institutional"],
				"source": "IFP#8SdkvkRZ51amC5sY",
				"versionId": "1"
			},
			"accident": {
				"type": {
					"coding": [{
						"display": "XXXXX"
					}]
				}
			},
			"billablePeriod": {
				"end": "2019-11-22",
				"start": "2019-11-08"
			},
			"careTeam": [{
				"provider": {
					"reference": "Organization/ifp-0566265"
				},
				"role": {
					"coding": [{
						"code": "performing",
						"system": "http://hl7.org/fhir/us/carin-bb/CodeSystem/C4BBClaimCareTeamRole"
					}]
				},
				"_sequence": {
					"extension": [{
						"url": "http://hl7.org/fhir/StructureDefinition/data-absent-reason",
						"valueCode": "unknown"
					}]
				}
			}],
			"_created": {
				"extension": [{
					"url": "http://hl7.org/fhir/StructureDefinition/data-absent-reason",
					"valueCode": "unknown"
				}]
			},
			"diagnosis": [{
				"diagnosisCodeableConcept": {
					"coding": [{
						"code": "K5720",
						"system": "http://hl7.org/fhir/sid/icd-10-cm",
						"version": "10"
					}]
				},
				"onAdmission": {
					"coding": [{
						"code": "y",
						"system": "http://www.nubc.org/PresentOnAdmission"
					}]
				},
				"sequence": 1,
				"type": [{
					"coding": [{
						"code": "principal",
						"system": "http://hl7.org/fhir/us/carin-bb/CodeSystem/C4BBClaimDiagnosisType"
					}]
				}]
			}, {
				"diagnosisCodeableConcept": {
					"coding": [{
						"code": "N186",
						"system": "http://hl7.org/fhir/sid/icd-10-cm",
						"version": "10"
					}]
				},
				"onAdmission": {
					"coding": [{
						"code": "y",
						"system": "http://www.nubc.org/PresentOnAdmission"
					}]
				},
				"sequence": 2,
				"type": [{
					"coding": [{
						"code": "other",
						"system": "http://hl7.org/fhir/us/carin-bb/CodeSystem/C4BBClaimDiagnosisType"
					}]
				}]
			}, {
				"diagnosisCodeableConcept": {
					"coding": [{
						"code": "K5720",
						"system": "http://hl7.org/fhir/sid/icd-10-cm",
						"version": "10"
					}]
				},
				"sequence": 1,
				"type": [{
					"coding": [{
						"code": "admitting",
						"system": "http://hl7.org/fhir/us/carin-bb/CodeSystem/C4BBClaimDiagnosisType"
					}]
				}]
			}, {
				"diagnosisCodeableConcept": {
					"coding": [{
						"code": "Z905",
						"system": "http://hl7.org/fhir/sid/icd-10-cm",
						"version": "10"
					}]
				},
				"sequence": 11,
				"type": [{
					"coding": [{
						"code": "other",
						"system": "http://hl7.org/fhir/us/carin-bb/CodeSystem/C4BBClaimDiagnosisType"
					}]
				}]
			}, {
				"diagnosisCodeableConcept": {
					"coding": [{
						"code": "Z87442",
						"system": "http://hl7.org/fhir/sid/icd-10-cm",
						"version": "10"
					}]
				},
				"sequence": 12,
				"type": [{
					"coding": [{
						"code": "other",
						"system": "http://hl7.org/fhir/us/carin-bb/CodeSystem/C4BBClaimDiagnosisType"
					}]
				}]
			}, {
				"diagnosisCodeableConcept": {
					"coding": [{
						"code": "Z98890",
						"system": "http://hl7.org/fhir/sid/icd-10-cm",
						"version": "10"
					}]
				},
				"sequence": 14,
				"type": [{
					"coding": [{
						"code": "other",
						"system": "http://hl7.org/fhir/us/carin-bb/CodeSystem/C4BBClaimDiagnosisType"
					}]
				}]
			}, {
				"diagnosisCodeableConcept": {
					"coding": [{
						"code": "D649",
						"system": "http://hl7.org/fhir/sid/icd-10-cm",
						"version": "10"
					}]
				},
				"onAdmission": {
					"coding": [{
						"code": "y",
						"system": "http://www.nubc.org/PresentOnAdmission"
					}]
				},
				"sequence": 7,
				"type": [{
					"coding": [{
						"code": "other",
						"system": "http://hl7.org/fhir/us/carin-bb/CodeSystem/C4BBClaimDiagnosisType"
					}]
				}]
			}, {
				"diagnosisCodeableConcept": {
					"coding": [{
						"code": "Q612",
						"system": "http://hl7.org/fhir/sid/icd-10-cm",
						"version": "10"
					}]
				},
				"sequence": 5,
				"type": [{
					"coding": [{
						"code": "other",
						"system": "http://hl7.org/fhir/us/carin-bb/CodeSystem/C4BBClaimDiagnosisType"
					}]
				}]
			}, {
				"diagnosisCodeableConcept": {
					"coding": [{
						"code": "E876",
						"system": "http://hl7.org/fhir/sid/icd-10-cm",
						"version": "10"
					}]
				},
				"onAdmission": {
					"coding": [{
						"code": "y",
						"system": "http://www.nubc.org/PresentOnAdmission"
					}]
				},
				"sequence": 9,
				"type": [{
					"coding": [{
						"code": "other",
						"system": "http://hl7.org/fhir/us/carin-bb/CodeSystem/C4BBClaimDiagnosisType"
					}]
				}]
			}, {
				"diagnosisCodeableConcept": {
					"coding": [{
						"code": "Z7982",
						"system": "http://hl7.org/fhir/sid/icd-10-cm",
						"version": "10"
					}]
				},
				"sequence": 10,
				"type": [{
					"coding": [{
						"code": "other",
						"system": "http://hl7.org/fhir/us/carin-bb/CodeSystem/C4BBClaimDiagnosisType"
					}]
				}]
			}, {
				"diagnosisCodeableConcept": {
					"coding": [{
						"code": "Z8249",
						"system": "http://hl7.org/fhir/sid/icd-10-cm",
						"version": "10"
					}]
				},
				"sequence": 13,
				"type": [{
					"coding": [{
						"code": "other",
						"system": "http://hl7.org/fhir/us/carin-bb/CodeSystem/C4BBClaimDiagnosisType"
					}]
				}]
			}, {
				"diagnosisCodeableConcept": {
					"coding": [{
						"code": "E871",
						"system": "http://hl7.org/fhir/sid/icd-10-cm",
						"version": "10"
					}]
				},
				"onAdmission": {
					"coding": [{
						"code": "y",
						"system": "http://www.nubc.org/PresentOnAdmission"
					}]
				},
				"sequence": 3,
				"type": [{
					"coding": [{
						"code": "other",
						"system": "http://hl7.org/fhir/us/carin-bb/CodeSystem/C4BBClaimDiagnosisType"
					}]
				}]
			}, {
				"diagnosisCodeableConcept": {
					"coding": [{
						"code": "I120",
						"system": "http://hl7.org/fhir/sid/icd-10-cm",
						"version": "10"
					}]
				},
				"onAdmission": {
					"coding": [{
						"code": "y",
						"system": "http://www.nubc.org/PresentOnAdmission"
					}]
				},
				"sequence": 4,
				"type": [{
					"coding": [{
						"code": "other",
						"system": "http://hl7.org/fhir/us/carin-bb/CodeSystem/C4BBClaimDiagnosisType"
					}]
				}]
			}, {
				"diagnosisCodeableConcept": {
					"coding": [{
						"code": "Z940",
						"system": "http://hl7.org/fhir/sid/icd-10-cm",
						"version": "10"
					}]
				},
				"sequence": 6,
				"type": [{
					"coding": [{
						"code": "other",
						"system": "http://hl7.org/fhir/us/carin-bb/CodeSystem/C4BBClaimDiagnosisType"
					}]
				}]
			}, {
				"diagnosisCodeableConcept": {
					"coding": [{
						"code": "E785",
						"system": "http://hl7.org/fhir/sid/icd-10-cm",
						"version": "10"
					}]
				},
				"onAdmission": {
					"coding": [{
						"code": "y",
						"system": "http://www.nubc.org/PresentOnAdmission"
					}]
				},
				"sequence": 8,
				"type": [{
					"coding": [{
						"code": "other",
						"system": "http://hl7.org/fhir/us/carin-bb/CodeSystem/C4BBClaimDiagnosisType"
					}]
				}]
			}],
			"identifier": [{
				"type": {
					"extension": [{
						"url": "http://hl7.org/fhir/StructureDefinition/data-absent-reason",
						"valueCode": "unknown"
					}]
				},
				"value": "1925381131-8-FCTS"
			}],
			"insurance": [{
				"coverage": {
					"extension": [{
						"url": "http://hl7.org/fhir/StructureDefinition/data-absent-reason",
						"valueCode": "unknown"
					}]
				},
				"_focal": {
					"extension": [{
						"url": "http://hl7.org/fhir/StructureDefinition/data-absent-reason",
						"valueCode": "unknown"
					}]
				}
			}],
			"insurer": {
				"display": "Cigna"
			},
			"outcome": "complete",
			"patient": {
				"reference": "Patient/ifp-A00000000000005"
			},
			"payee": {
				"party": {
					"extension": [{
						"url": "http://hl7.org/fhir/StructureDefinition/data-absent-reason",
						"valueCode": "unknown"
					}]
				},
				"type": {
					"coding": [{
						"code": "other",
						"display": "Provider",
						"system": "http://terminology.hl7.org/CodeSystem/payeetype"
					}]
				}
			},
			"payment": {
				"date": "2020-01-02"
			},
			"provider": {
				"reference": "Organization/ifp-0566265"
			},
			"_status": {
				"extension": [{
					"url": "http://hl7.org/fhir/StructureDefinition/data-absent-reason",
					"valueCode": "unknown"
				}]
			},
			"total": [{
				"amount": {
					"extension": [{
						"url": "http://hl7.org/fhir/StructureDefinition/data-absent-reason",
						"valueCode": "unknown"
					}]
				},
				"category": {
					"coding": [{
						"code": "innetwork",
						"display": "In Network",
						"system": "http://hl7.org/fhir/us/carin-bb/CodeSystem/C4BBPayerAdjudicationStatus"
					}]
				}
			}],
			"type": {
				"coding": [{
					"code": "institutional",
					"display": "Institutional Claim",
					"system": "http://terminology.hl7.org/CodeSystem/claim-type"
				}]
			},
			"use": "claim",
			"resourceType": "ExplanationOfBenefit"
		},
		"search": {
			"mode": "match"
		}
	}, {
		"fullUrl": "https://p-hi2.digitaledge.cigna.com/PatientAccess/v1-devportal/ExplanationOfBenefit/ifp-B4028B5B95E3E540CD1DFA1968D5C08D",
		"resource": {
			"id": "ifp-B4028B5B95E3E540CD1DFA1968D5C08D",
			"meta": {
				"lastUpdated": "2022-06-20T15:45:34.699000+00:00",
				"profile": ["http://hl7.org/fhir/us/carin-bb/StructureDefinition/C4BB-ExplanationOfBenefit-Professional-NonClinician"],
				"source": "IFP#BmUfv05t9wDcyAt0",
				"versionId": "1"
			},
			"accident": {
				"type": {
					"coding": [{
						"display": "XXXXX"
					}]
				}
			},
			"billablePeriod": {
				"end": "2019-11-22",
				"start": "2019-11-22"
			},
			"careTeam": [{
				"provider": {
					"reference": "Organization/ifp-1465120"
				},
				"qualification": {
					"coding": [{
						"code": "unknown",
						"display": "Pathology, Anatomic",
						"system": "http://nucc.org/provider-taxonomy"
					}]
				},
				"role": {
					"coding": [{
						"code": "performing",
						"system": "http://hl7.org/fhir/us/carin-bb/CodeSystem/C4BBClaimCareTeamRole"
					}]
				},
				"_sequence": {
					"extension": [{
						"url": "http://hl7.org/fhir/StructureDefinition/data-absent-reason",
						"valueCode": "unknown"
					}]
				}
			}],
			"_created": {
				"extension": [{
					"url": "http://hl7.org/fhir/StructureDefinition/data-absent-reason",
					"valueCode": "unknown"
				}]
			},
			"diagnosis": [{
				"diagnosisCodeableConcept": {
					"coding": [{
						"code": "N186",
						"system": "http://hl7.org/fhir/sid/icd-10-cm",
						"version": "10"
					}]
				},
				"sequence": 2,
				"type": [{
					"coding": [{
						"code": "secondary",
						"system": "http://hl7.org/fhir/us/carin-bb/CodeSystem/C4BBClaimDiagnosisType"
					}]
				}]
			}, {
				"diagnosisCodeableConcept": {
					"coding": [{
						"code": "K5720",
						"system": "http://hl7.org/fhir/sid/icd-10-cm",
						"version": "10"
					}]
				},
				"sequence": 1,
				"type": [{
					"coding": [{
						"code": "principal",
						"system": "http://hl7.org/fhir/us/carin-bb/CodeSystem/C4BBClaimDiagnosisType"
					}]
				}]
			}, {
				"diagnosisCodeableConcept": {
					"coding": [{
						"code": "E871",
						"system": "http://hl7.org/fhir/sid/icd-10-cm",
						"version": "10"
					}]
				},
				"sequence": 3,
				"type": [{
					"coding": [{
						"code": "secondary",
						"system": "http://hl7.org/fhir/us/carin-bb/CodeSystem/C4BBClaimDiagnosisType"
					}]
				}]
			}, {
				"diagnosisCodeableConcept": {
					"coding": [{
						"code": "Q612",
						"system": "http://hl7.org/fhir/sid/icd-10-cm",
						"version": "10"
					}]
				},
				"sequence": 4,
				"type": [{
					"coding": [{
						"code": "secondary",
						"system": "http://hl7.org/fhir/us/carin-bb/CodeSystem/C4BBClaimDiagnosisType"
					}]
				}]
			}],
			"identifier": [{
				"type": {
					"extension": [{
						"url": "http://hl7.org/fhir/StructureDefinition/data-absent-reason",
						"valueCode": "unknown"
					}]
				},
				"value": "1927246798-6-FCTS"
			}],
			"insurance": [{
				"coverage": {
					"extension": [{
						"url": "http://hl7.org/fhir/StructureDefinition/data-absent-reason",
						"valueCode": "unknown"
					}]
				},
				"_focal": {
					"extension": [{
						"url": "http://hl7.org/fhir/StructureDefinition/data-absent-reason",
						"valueCode": "unknown"
					}]
				}
			}],
			"insurer": {
				"display": "Cigna"
			},
			"item": [{
				"adjudication": [{
					"category": {
						"coding": [{
							"code": "innetwork",
							"display": "In Network",
							"system": "http://hl7.org/fhir/us/carin-bb/CodeSystem/C4BBPayerAdjudicationStatus"
						}]
					}
				}],
				"net": {
					"value": 25
				},
				"productOrService": {
					"coding": [{
						"code": "83735",
						"display": "ASSAY OF MAGNESIUM",
						"system": "http://www.ama-assn.org/go/cpt"
					}]
				},
				"quantity": {
					"unit": "item_quantity_unit",
					"value": 1
				},
				"_sequence": {
					"extension": [{
						"url": "http://hl7.org/fhir/StructureDefinition/data-absent-reason",
						"valueCode": "unknown"
					}]
				},
				"servicedPeriod": {
					"end": "2019-11-22",
					"start": "2019-11-22"
				}
			}],
			"outcome": "complete",
			"patient": {
				"reference": "Patient/ifp-A00000000000005"
			},
			"payee": {
				"party": {
					"extension": [{
						"url": "http://hl7.org/fhir/StructureDefinition/data-absent-reason",
						"valueCode": "unknown"
					}]
				},
				"type": {
					"coding": [{
						"code": "other",
						"display": "Provider",
						"system": "http://terminology.hl7.org/CodeSystem/payeetype"
					}]
				}
			},
			"payment": {
				"date": "2020-01-09"
			},
			"provider": {
				"reference": "Organization/ifp-1465120"
			},
			"_status": {
				"extension": [{
					"url": "http://hl7.org/fhir/StructureDefinition/data-absent-reason",
					"valueCode": "unknown"
				}]
			},
			"type": {
				"coding": [{
					"code": "professional",
					"display": "Professional Claim",
					"system": "http://terminology.hl7.org/CodeSystem/claim-type"
				}]
			},
			"use": "claim",
			"resourceType": "ExplanationOfBenefit"
		},
		"search": {
			"mode": "match"
		}
	}, {
		"fullUrl": "https://p-hi2.digitaledge.cigna.com/PatientAccess/v1-devportal/ExplanationOfBenefit/ifp-B272409E801EDF44CDDAD86259DBAC50",
		"resource": {
			"id": "ifp-B272409E801EDF44CDDAD86259DBAC50",
			"meta": {
				"lastUpdated": "2022-06-20T15:45:35.218000+00:00",
				"profile": ["http://hl7.org/fhir/us/carin-bb/StructureDefinition/C4BB-ExplanationOfBenefit-Inpatient-Institutional"],
				"source": "IFP#6OAkeEOfyrgbnOn1",
				"versionId": "1"
			},
			"accident": {
				"type": {
					"coding": [{
						"display": "XXXXX"
					}]
				}
			},
			"billablePeriod": {
				"end": "2019-11-22",
				"start": "2019-11-08"
			},
			"careTeam": [{
				"provider": {
					"reference": "Organization/ifp-0566265"
				},
				"role": {
					"coding": [{
						"code": "performing",
						"system": "http://hl7.org/fhir/us/carin-bb/CodeSystem/C4BBClaimCareTeamRole"
					}]
				},
				"_sequence": {
					"extension": [{
						"url": "http://hl7.org/fhir/StructureDefinition/data-absent-reason",
						"valueCode": "unknown"
					}]
				}
			}],
			"_created": {
				"extension": [{
					"url": "http://hl7.org/fhir/StructureDefinition/data-absent-reason",
					"valueCode": "unknown"
				}]
			},
			"diagnosis": [{
				"diagnosisCodeableConcept": {
					"coding": [{
						"code": "Z87442",
						"system": "http://hl7.org/fhir/sid/icd-10-cm",
						"version": "10"
					}]
				},
				"sequence": 12,
				"type": [{
					"coding": [{
						"code": "other",
						"system": "http://hl7.org/fhir/us/carin-bb/CodeSystem/C4BBClaimDiagnosisType"
					}]
				}]
			}, {
				"diagnosisCodeableConcept": {
					"coding": [{
						"code": "Z98890",
						"system": "http://hl7.org/fhir/sid/icd-10-cm",
						"version": "10"
					}]
				},
				"sequence": 14,
				"type": [{
					"coding": [{
						"code": "other",
						"system": "http://hl7.org/fhir/us/carin-bb/CodeSystem/C4BBClaimDiagnosisType"
					}]
				}]
			}, {
				"diagnosisCodeableConcept": {
					"coding": [{
						"code": "Z940",
						"system": "http://hl7.org/fhir/sid/icd-10-cm",
						"version": "10"
					}]
				},
				"sequence": 6,
				"type": [{
					"coding": [{
						"code": "other",
						"system": "http://hl7.org/fhir/us/carin-bb/CodeSystem/C4BBClaimDiagnosisType"
					}]
				}]
			}, {
				"diagnosisCodeableConcept": {
					"coding": [{
						"code": "K5720",
						"system": "http://hl7.org/fhir/sid/icd-10-cm",
						"version": "10"
					}]
				},
				"onAdmission": {
					"coding": [{
						"code": "y",
						"system": "http://www.nubc.org/PresentOnAdmission"
					}]
				},
				"sequence": 1,
				"type": [{
					"coding": [{
						"code": "principal",
						"system": "http://hl7.org/fhir/us/carin-bb/CodeSystem/C4BBClaimDiagnosisType"
					}]
				}]
			}, {
				"diagnosisCodeableConcept": {
					"coding": [{
						"code": "Q612",
						"system": "http://hl7.org/fhir/sid/icd-10-cm",
						"version": "10"
					}]
				},
				"sequence": 5,
				"type": [{
					"coding": [{
						"code": "other",
						"system": "http://hl7.org/fhir/us/carin-bb/CodeSystem/C4BBClaimDiagnosisType"
					}]
				}]
			}, {
				"diagnosisCodeableConcept": {
					"coding": [{
						"code": "E785",
						"system": "http://hl7.org/fhir/sid/icd-10-cm",
						"version": "10"
					}]
				},
				"onAdmission": {
					"coding": [{
						"code": "y",
						"system": "http://www.nubc.org/PresentOnAdmission"
					}]
				},
				"sequence": 8,
				"type": [{
					"coding": [{
						"code": "other",
						"system": "http://hl7.org/fhir/us/carin-bb/CodeSystem/C4BBClaimDiagnosisType"
					}]
				}]
			}, {
				"diagnosisCodeableConcept": {
					"coding": [{
						"code": "D649",
						"system": "http://hl7.org/fhir/sid/icd-10-cm",
						"version": "10"
					}]
				},
				"onAdmission": {
					"coding": [{
						"code": "y",
						"system": "http://www.nubc.org/PresentOnAdmission"
					}]
				},
				"sequence": 7,
				"type": [{
					"coding": [{
						"code": "other",
						"system": "http://hl7.org/fhir/us/carin-bb/CodeSystem/C4BBClaimDiagnosisType"
					}]
				}]
			}, {
				"diagnosisCodeableConcept": {
					"coding": [{
						"code": "K5720",
						"system": "http://hl7.org/fhir/sid/icd-10-cm",
						"version": "10"
					}]
				},
				"sequence": 1,
				"type": [{
					"coding": [{
						"code": "admitting",
						"system": "http://hl7.org/fhir/us/carin-bb/CodeSystem/C4BBClaimDiagnosisType"
					}]
				}]
			}, {
				"diagnosisCodeableConcept": {
					"coding": [{
						"code": "E871",
						"system": "http://hl7.org/fhir/sid/icd-10-cm",
						"version": "10"
					}]
				},
				"onAdmission": {
					"coding": [{
						"code": "y",
						"system": "http://www.nubc.org/PresentOnAdmission"
					}]
				},
				"sequence": 3,
				"type": [{
					"coding": [{
						"code": "other",
						"system": "http://hl7.org/fhir/us/carin-bb/CodeSystem/C4BBClaimDiagnosisType"
					}]
				}]
			}, {
				"diagnosisCodeableConcept": {
					"coding": [{
						"code": "Z905",
						"system": "http://hl7.org/fhir/sid/icd-10-cm",
						"version": "10"
					}]
				},
				"sequence": 11,
				"type": [{
					"coding": [{
						"code": "other",
						"system": "http://hl7.org/fhir/us/carin-bb/CodeSystem/C4BBClaimDiagnosisType"
					}]
				}]
			}, {
				"diagnosisCodeableConcept": {
					"coding": [{
						"code": "Z8249",
						"system": "http://hl7.org/fhir/sid/icd-10-cm",
						"version": "10"
					}]
				},
				"sequence": 13,
				"type": [{
					"coding": [{
						"code": "other",
						"system": "http://hl7.org/fhir/us/carin-bb/CodeSystem/C4BBClaimDiagnosisType"
					}]
				}]
			}, {
				"diagnosisCodeableConcept": {
					"coding": [{
						"code": "Z7982",
						"system": "http://hl7.org/fhir/sid/icd-10-cm",
						"version": "10"
					}]
				},
				"sequence": 10,
				"type": [{
					"coding": [{
						"code": "other",
						"system": "http://hl7.org/fhir/us/carin-bb/CodeSystem/C4BBClaimDiagnosisType"
					}]
				}]
			}, {
				"diagnosisCodeableConcept": {
					"coding": [{
						"code": "E876",
						"system": "http://hl7.org/fhir/sid/icd-10-cm",
						"version": "10"
					}]
				},
				"onAdmission": {
					"coding": [{
						"code": "y",
						"system": "http://www.nubc.org/PresentOnAdmission"
					}]
				},
				"sequence": 9,
				"type": [{
					"coding": [{
						"code": "other",
						"system": "http://hl7.org/fhir/us/carin-bb/CodeSystem/C4BBClaimDiagnosisType"
					}]
				}]
			}, {
				"diagnosisCodeableConcept": {
					"coding": [{
						"code": "I120",
						"system": "http://hl7.org/fhir/sid/icd-10-cm",
						"version": "10"
					}]
				},
				"onAdmission": {
					"coding": [{
						"code": "y",
						"system": "http://www.nubc.org/PresentOnAdmission"
					}]
				},
				"sequence": 4,
				"type": [{
					"coding": [{
						"code": "other",
						"system": "http://hl7.org/fhir/us/carin-bb/CodeSystem/C4BBClaimDiagnosisType"
					}]
				}]
			}, {
				"diagnosisCodeableConcept": {
					"coding": [{
						"code": "N186",
						"system": "http://hl7.org/fhir/sid/icd-10-cm",
						"version": "10"
					}]
				},
				"onAdmission": {
					"coding": [{
						"code": "y",
						"system": "http://www.nubc.org/PresentOnAdmission"
					}]
				},
				"sequence": 2,
				"type": [{
					"coding": [{
						"code": "other",
						"system": "http://hl7.org/fhir/us/carin-bb/CodeSystem/C4BBClaimDiagnosisType"
					}]
				}]
			}],
			"identifier": [{
				"type": {
					"extension": [{
						"url": "http://hl7.org/fhir/StructureDefinition/data-absent-reason",
						"valueCode": "unknown"
					}]
				},
				"value": "1925381131-16-FCTS"
			}],
			"insurance": [{
				"coverage": {
					"extension": [{
						"url": "http://hl7.org/fhir/StructureDefinition/data-absent-reason",
						"valueCode": "unknown"
					}]
				},
				"_focal": {
					"extension": [{
						"url": "http://hl7.org/fhir/StructureDefinition/data-absent-reason",
						"valueCode": "unknown"
					}]
				}
			}],
			"insurer": {
				"display": "Cigna"
			},
			"outcome": "complete",
			"patient": {
				"reference": "Patient/ifp-A00000000000005"
			},
			"payee": {
				"party": {
					"extension": [{
						"url": "http://hl7.org/fhir/StructureDefinition/data-absent-reason",
						"valueCode": "unknown"
					}]
				},
				"type": {
					"coding": [{
						"code": "other",
						"display": "Provider",
						"system": "http://terminology.hl7.org/CodeSystem/payeetype"
					}]
				}
			},
			"payment": {
				"date": "2020-01-02"
			},
			"provider": {
				"reference": "Organization/ifp-0566265"
			},
			"_status": {
				"extension": [{
					"url": "http://hl7.org/fhir/StructureDefinition/data-absent-reason",
					"valueCode": "unknown"
				}]
			},
			"total": [{
				"amount": {
					"extension": [{
						"url": "http://hl7.org/fhir/StructureDefinition/data-absent-reason",
						"valueCode": "unknown"
					}]
				},
				"category": {
					"coding": [{
						"code": "innetwork",
						"display": "In Network",
						"system": "http://hl7.org/fhir/us/carin-bb/CodeSystem/C4BBPayerAdjudicationStatus"
					}]
				}
			}],
			"type": {
				"coding": [{
					"code": "institutional",
					"display": "Institutional Claim",
					"system": "http://terminology.hl7.org/CodeSystem/claim-type"
				}]
			},
			"use": "claim",
			"resourceType": "ExplanationOfBenefit"
		},
		"search": {
			"mode": "match"
		}
	}, {
		"fullUrl": "https://p-hi2.digitaledge.cigna.com/PatientAccess/v1-devportal/ExplanationOfBenefit/ifp-C0B54C38E7FBB4AAEFEF3BB6E74F3081",
		"resource": {
			"id": "ifp-C0B54C38E7FBB4AAEFEF3BB6E74F3081",
			"meta": {
				"lastUpdated": "2022-06-20T15:45:49.312000+00:00",
				"profile": ["http://hl7.org/fhir/us/carin-bb/StructureDefinition/C4BB-ExplanationOfBenefit-Professional-NonClinician"],
				"source": "IFP#c3P5kBwUugM3EvwG",
				"versionId": "1"
			},
			"accident": {
				"type": {
					"coding": [{
						"display": "XXXXX"
					}]
				}
			},
			"billablePeriod": {
				"end": "2019-10-10",
				"start": "2019-10-10"
			},
			"careTeam": [{
				"provider": {
					"reference": "Organization/ifp-51fb06f37e5ec973ce69132a9a2571f3"
				},
				"qualification": {
					"coding": [{
						"code": "unknown",
						"display": "Radiology, Diagnostic",
						"system": "http://nucc.org/provider-taxonomy"
					}]
				},
				"role": {
					"coding": [{
						"code": "performing",
						"system": "http://hl7.org/fhir/us/carin-bb/CodeSystem/C4BBClaimCareTeamRole"
					}]
				},
				"_sequence": {
					"extension": [{
						"url": "http://hl7.org/fhir/StructureDefinition/data-absent-reason",
						"valueCode": "unknown"
					}]
				}
			}],
			"_created": {
				"extension": [{
					"url": "http://hl7.org/fhir/StructureDefinition/data-absent-reason",
					"valueCode": "unknown"
				}]
			},
			"diagnosis": [{
				"diagnosisCodeableConcept": {
					"coding": [{
						"code": "Z9911",
						"system": "http://hl7.org/fhir/sid/icd-10-cm",
						"version": "10"
					}]
				},
				"sequence": 3,
				"type": [{
					"coding": [{
						"code": "secondary",
						"system": "http://hl7.org/fhir/us/carin-bb/CodeSystem/C4BBClaimDiagnosisType"
					}]
				}]
			}, {
				"diagnosisCodeableConcept": {
					"coding": [{
						"code": "Z452",
						"system": "http://hl7.org/fhir/sid/icd-10-cm",
						"version": "10"
					}]
				},
				"sequence": 2,
				"type": [{
					"coding": [{
						"code": "secondary",
						"system": "http://hl7.org/fhir/us/carin-bb/CodeSystem/C4BBClaimDiagnosisType"
					}]
				}]
			}, {
				"diagnosisCodeableConcept": {
					"coding": [{
						"code": "D329",
						"system": "http://hl7.org/fhir/sid/icd-10-cm",
						"version": "10"
					}]
				},
				"sequence": 1,
				"type": [{
					"coding": [{
						"code": "principal",
						"system": "http://hl7.org/fhir/us/carin-bb/CodeSystem/C4BBClaimDiagnosisType"
					}]
				}]
			}],
			"identifier": [{
				"type": {
					"extension": [{
						"url": "http://hl7.org/fhir/StructureDefinition/data-absent-reason",
						"valueCode": "unknown"
					}]
				},
				"value": "1921666600-1-FCTS"
			}],
			"insurance": [{
				"coverage": {
					"extension": [{
						"url": "http://hl7.org/fhir/StructureDefinition/data-absent-reason",
						"valueCode": "unknown"
					}]
				},
				"_focal": {
					"extension": [{
						"url": "http://hl7.org/fhir/StructureDefinition/data-absent-reason",
						"valueCode": "unknown"
					}]
				}
			}],
			"insurer": {
				"display": "Cigna"
			},
			"item": [{
				"adjudication": [{
					"category": {
						"coding": [{
							"code": "innetwork",
							"display": "In Network",
							"system": "http://hl7.org/fhir/us/carin-bb/CodeSystem/C4BBPayerAdjudicationStatus"
						}]
					}
				}],
				"net": {
					"value": 165.66
				},
				"productOrService": {
					"coding": [{
						"code": "70470",
						"display": "CT HEAD/BRAIN W/O & W/DYE",
						"system": "http://www.ama-assn.org/go/cpt"
					}]
				},
				"quantity": {
					"unit": "item_quantity_unit",
					"value": 1
				},
				"_sequence": {
					"extension": [{
						"url": "http://hl7.org/fhir/StructureDefinition/data-absent-reason",
						"valueCode": "unknown"
					}]
				},
				"servicedPeriod": {
					"end": "2019-10-10",
					"start": "2019-10-10"
				}
			}],
			"outcome": "complete",
			"patient": {
				"reference": "Patient/ifp-A00000000000005"
			},
			"payee": {
				"party": {
					"extension": [{
						"url": "http://hl7.org/fhir/StructureDefinition/data-absent-reason",
						"valueCode": "unknown"
					}]
				},
				"type": {
					"coding": [{
						"code": "other",
						"display": "Provider",
						"system": "http://terminology.hl7.org/CodeSystem/payeetype"
					}]
				}
			},
			"payment": {
				"date": "2019-10-17"
			},
			"provider": {
				"reference": "Organization/ifp-51fb06f37e5ec973ce69132a9a2571f3"
			},
			"_status": {
				"extension": [{
					"url": "http://hl7.org/fhir/StructureDefinition/data-absent-reason",
					"valueCode": "unknown"
				}]
			},
			"type": {
				"coding": [{
					"code": "professional",
					"display": "Professional Claim",
					"system": "http://terminology.hl7.org/CodeSystem/claim-type"
				}]
			},
			"use": "claim",
			"resourceType": "ExplanationOfBenefit"
		},
		"search": {
			"mode": "match"
		}
	}, {
		"fullUrl": "https://p-hi2.digitaledge.cigna.com/PatientAccess/v1-devportal/Immunization/ifp-2f26cahb-536c-4e01-8672-72a6b543fa65",
		"resource": {
			"id": "ifp-2f26cahb-536c-4e01-8672-72a6b543fa65",
			"meta": {
				"lastUpdated": "2022-06-20T15:45:51.885000+00:00",
				"source": "IFP#AG3OYyeYwo5It0Jo",
				"versionId": "1"
			},
			"location": {
				"reference": "Location/ifp-2f26caab-536c-4e00-8672-72a6b543fa89"
			},
			"occurrenceDateTime": "2021-02-22T15:20:12+00:00",
			"patient": {
				"reference": "Patient/ifp-A00000000000005"
			},
			"primarySource": true,
			"status": "completed",
			"vaccineCode": {
				"coding": [{
					"code": "212",
					"system": "http://hl7.org/fhir/sid/cvx"
				}]
			},
			"resourceType": "Immunization"
		},
		"search": {
			"mode": "match"
		}
	}, {
		"fullUrl": "https://p-hi2.digitaledge.cigna.com/PatientAccess/v1-devportal/Location/ifp-2f26caab-536c-4e00-8672-72a6b543fa89",
		"resource": {
			"id": "ifp-2f26caab-536c-4e00-8672-72a6b543fa89",
			"meta": {
				"lastUpdated": "2022-06-20T15:45:50.345000+00:00",
				"source": "IFP#Yglf5U34zTuq9jfW",
				"versionId": "1"
			},
			"address": {
				"city": "BOISE",
				"country": "US",
				"line": ["65 MAIN ST"],
				"postalCode": "83701",
				"state": "ID"
			},
			"name": "TRISTATE HEALTH SERVICE",
			"resourceType": "Location"
		},
		"search": {
			"mode": "match"
		}
	}, {
		"fullUrl": "https://p-hi2.digitaledge.cigna.com/PatientAccess/v1-devportal/Organization/ifp-51fb06f37e5ec973ce69132a9a2571f3",
		"resource": {
			"id": "ifp-51fb06f37e5ec973ce69132a9a2571f3",
			"meta": {
				"lastUpdated": "2022-06-20T15:45:45.155000+00:00",
				"profile": ["http://hl7.org/fhir/us/carin-bb/StructureDefinition/C4BB-Organization"],
				"source": "IFP#1Hc7lo3uMBmGNP1z",
				"versionId": "1"
			},
			"active": true,
			"address": [{
				"city": "SURPRISE",
				"line": ["13991 W GRAND AVE STE 105"],
				"postalCode": "85374",
				"state": "AZ",
				"text": "13991 W GRAND AVE STE 105 SURPRISE AZ 85374"
			}],
			"identifier": [{
				"system": "http://hl7.org/fhir/sid/us-npi",
				"type": {
					"coding": [{
						"code": "npi",
						"system": "http://hl7.org/fhir/us/carin-bb/CodeSystem/IdentifierTypeCS"
					}]
				},
				"value": "1609868678"
			}, {
				"system": "https://developer.cigna.com",
				"type": {
					"coding": [{
						"code": "provid",
						"system": "http://hl7.org/fhir/us/carin-bb/CodeSystem/IdentifierTypeCS"
					}]
				}
			}, {
				"system": "urn:oid:2.16.840.1.113883.4.4",
				"type": {
					"coding": [{
						"code": "TAX",
						"system": "http://terminology.hl7.org/CodeSystem/v2-0203"
					}]
				}
			}],
			"name": "CIGNA MED GRP PHCY-SUN CITY WE",
			"resourceType": "Organization"
		},
		"search": {
			"mode": "match"
		}
	}, {
		"resource": {
			"issue": [{
				"code": "processing",
				"diagnostics": "Error code CLCOM-006; x-request-id: 1bcbd8d5-e4ae-42af-b6cb-a9babaa8a17e",
				"severity": "fatal"
			}],
			"resourceType": "OperationOutcome"
		}
	}, {
		"fullUrl": "https://p-hi2.digitaledge.cigna.com/Patient/A00000000000005",
		"resource": {
			"id": "A00000000000005",
			"link": [{
				"other": {
					"reference": "Patient/ifp-A00000000000005"
				},
				"type": "seealso"
			}, {
				"other": {
					"reference": "Patient/com-44a04ebb-7aba-4e66-99c7-12b99405f30d"
				},
				"type": "seealso"
			}],
			"resourceType": "Patient"
		}
	}


	],
	"link": [{
		"relation": "self",
		"url": "https://p-hi2.digitaledge.cigna.com/PatientAccess/v1-devportal/Patient/A00000000000005/$everything"
	}],
	"total": 11,
	"type": "searchset",
	"resourceType": "Bundle"
}
